Folder: 250604_Tancredi/data_VSM

Note: data_VSM/3A.txt
Start Time:  04-06-2025 10:19:54          Time Completed:  04-06-2025 11:09:29      Elapsed Time:  00:49:34
Sample ID:     

Experiment:    C:\IDEASVSM\LS_QC\Experiments\MvsH_1\MvsH_1.exp
Data File:     C:\IDEASVSM\LS_QC\3A.txt
Plot File:     C:\IDEASVSM\LS_QC\3A.oc2
VSM Exp File:  C:\IDEASVSM\LS_QC\Experiments\MvsH_1\MvsH_1.stp
VSM Data File: C:\IDEASVSM\LS_QC\3A.dat

***DATA***

Field(G)	 Moment(emu)	
 19000 	 0.0282481 	
 18000 	 0.0282227 	
 17000 	 0.0281859 	
 16000 	 0.0281429 	
 15000 	 0.0280748 	
 14000 	 0.0280018 	
 13000 	 0.0279006 	
 12000 	 0.0277928 	
 11000 	 0.027615 	
 10000 	 0.027353 	
 9000.02 	 0.0269376 	
 7999.99 	 0.0265085 	
 6999.99 	 0.0259737 	
 6000.01 	 0.0252874 	
 5000.01 	 0.0245851 	
 4000 	 0.0234024 	
 3000.07 	 0.0221752 	
 1999.99 	 0.020622 	
 999.989 	 0.0174514 	
 950.008 	 0.0168135 	
 900.001 	 0.016459 	
 849.999 	 0.0161964 	
 799.986 	 0.0159416 	
 749.998 	 0.0156197 	
 700.005 	 0.0152266 	
 651.663 	 0.0148116 	
 600.002 	 0.014197 	
 549.989 	 0.0136862 	
 499.992 	 0.0131158 	
 450.004 	 0.0124206 	
 399.994 	 0.0115185 	
 349.994 	 0.0105172 	
 299.997 	 0.00938374 	
 249.99 	 0.00815207 	
 199.995 	 0.0068743 	
 190.008 	 0.00643643 	
 180.001 	 0.00610288 	
 169.991 	 0.0057077 	
 159.994 	 0.00544622 	
 149.995 	 0.00518307 	
 140 	 0.00486039 	
 129.962 	 0.00450905 	
 119.991 	 0.00412523 	
 110 	 0.00385575 	
 99.997 	 0.00344083 	
 89.9983 	 0.0031857 	
 79.9995 	 0.0028654 	
 69.9946 	 0.00256074 	
 59.9974 	 0.00227096 	
 49.9942 	 0.00198272 	
 39.9928 	 0.0017107 	
 29.9963 	 0.00144756 	
 20.0007 	 0.00119366 	
 17.9918 	 0.0011105 	
 15.9962 	 0.001039 	
 13.9912 	 0.00097666 	
 12.0016 	 0.000916915 	
 9.99839 	 0.000856717 	
 8.00533 	 0.00079823 	
 6.00379 	 0.000734729 	
 3.99003 	 0.000658975 	
 2.00596 	 0.000550822 	
 0.000289896 	 0.000358365 	
-2.00173 	 0.000186756 	
-3.99772 	 0.0000376201 	
-5.99979 	-0.0000858795 	
-7.99837 	-0.000172336 	
-9.99412 	-0.000235933 	
-12.0027 	-0.000288455 	
-14.007 	-0.000337119 	
-16.0024 	-0.000382388 	
-18.0016 	-0.000424563 	
-19.9998 	-0.000463923 	
-30.0064 	-0.000641643 	
-40.0091 	-0.000795073 	
-49.9973 	-0.00096116 	
-59.9998 	-0.00114489 	
-70.0011 	-0.00134302 	
-79.9953 	-0.00156571 	
-89.9952 	-0.00178972 	
-100.001 	-0.00202759 	
-110.002 	-0.00228291 	
-120 	-0.00254212 	
-130.008 	-0.00282101 	
-140.002 	-0.00314093 	
-149.995 	-0.00342346 	
-160.006 	-0.00371509 	
-170.005 	-0.00402635 	
-179.998 	-0.00436016 	
-189.999 	-0.00464499 	
-199.998 	-0.00500345 	
-250.004 	-0.00625539 	
-299.997 	-0.00746295 	
-350.004 	-0.0086158 	
-399.997 	-0.00965165 	
-450.002 	-0.0105736 	
-499.998 	-0.0114455 	
-550 	-0.0122298 	
-600.003 	-0.0128176 	
-649.993 	-0.013323 	
-700.007 	-0.0138086 	
-750.011 	-0.0142267 	
-800.005 	-0.0145908 	
-850 	-0.0149298 	
-899.999 	-0.0152586 	
-950.002 	-0.0154995 	
-1000.01 	-

Note: data_VSM/3Zb.txt
Start Time:  04-06-2025 18:36:53          Time Completed:  04-06-2025 19:27:09      Elapsed Time:  00:50:15
Sample ID:     

Experiment:    C:\IDEASVSM\LS_QC\Experiments\MvsH_1\MvsH_1.exp
Data File:     C:\IDEASVSM\LS_QC\3Zb.txt
Plot File:     C:\IDEASVSM\LS_QC\3Zb.oc2
VSM Exp File:  C:\IDEASVSM\LS_QC\Experiments\MvsH_1\MvsH_1.stp
VSM Data File: C:\IDEASVSM\LS_QC\3Zb.dat

***DATA***

Field(G)	 Moment(emu)	
 19000 	 0.0216357 	
 18000.2 	 0.0216173 	
 16999.8 	 0.021596 	
 16000 	 0.0215836 	
 15000 	 0.0215545 	
 14000 	 0.0215179 	
 13000 	 0.0214804 	
 12000 	 0.0214311 	
 11000 	 0.02137 	
 10000 	 0.0212985 	
 9000.01 	 0.0212074 	
 8000.26 	 0.021095 	
 6999.93 	 0.0209484 	
 5999.9 	 0.020779 	
 4999.99 	 0.0205563 	
 3999.99 	 0.0202035 	
 3000.01 	 0.0196865 	
 1999.96 	 0.0188395 	
 999.972 	 0.0170805 	
 949.99 	 0.0169067 	
 899.986 	 0.0167277 	
 849.989 	 0.0165615 	
 799.996 	 0.0163761 	
 749.999 	 0.0161607 	
 699.996 	 0.0159203 	
 649.996 	 0.0156587 	
 599.998 	 0.0153858 	
 549.994 	 0.0150544 	
 499.983 	 0.0146867 	
 450.002 	 0.0142517 	
 399.995 	 0.0137448 	
 349.998 	 0.0131137 	
 300.004 	 0.0123481 	
 249.996 	 0.0113621 	
 200.009 	 0.0100681 	
 189.999 	 0.0097536 	
 179.99 	 0.00942012 	
 170.004 	 0.00907105 	
 160.002 	 0.00869849 	
 149.995 	 0.00830173 	
 139.992 	 0.00788929 	
 130.002 	 0.00743947 	
 120 	 0.00697442 	
 109.999 	 0.00647676 	
 100.002 	 0.0059503 	
 89.9876 	 0.00540376 	
 80.0039 	 0.00482188 	
 69.9991 	 0.00421374 	
 59.991 	 0.0035799 	
 50.0013 	 0.00290917 	
 40.0053 	 0.00219467 	
 29.9995 	 0.00154171 	
 19.9999 	 0.000971663 	
 17.9969 	 0.000867941 	
 16.0052 	 0.000763195 	
 13.9935 	 0.000670183 	
 12.0011 	 0.000576066 	
 10.0005 	 0.000483484 	
 8.00042 	 0.000392393 	
 6.00867 	 0.000303589 	
 4.00219 	 0.000214495 	
 2.00008 	 0.000121032 	
 0.00145549 	 0.0000211488 	
-2.00473 	-0.0000780522 	
-3.99383 	-0.000170714 	
-6.00304 	-0.000258824 	
-8.00272 	-0.000344273 	
-9.99063 	-0.00043198 	
-12.0061 	-0.000521577 	
-14.0093 	-0.000608667 	
-16.0018 	-0.000700443 	
-18.0008 	-0.000792207 	
-20.0079 	-0.00089064 	
-29.9981 	-0.00140332 	
-40.0004 	-0.00200784 	
-50.0076 	-0.00273123 	
-60.0046 	-0.0034441 	
-70.0031 	-0.00407279 	
-80.0029 	-0.00466202 	
-90.005 	-0.00524822 	
-99.9934 	-0.00578962 	
-110.006 	-0.00631644 	
-120.002 	-0.00680915 	
-130.008 	-0.00727974 	
-140.002 	-0.00772776 	
-149.999 	-0.0081471 	
-160.004 	-0.00854633 	
-170.001 	-0.00891953 	
-179.998 	-0.00927642 	
-190 	-0.00960984 	
-200.005 	-0.00992643 	
-250.006 	-0.01123 	
-299.994 	-0.0122355 	
-350.003 	-0.0130182 	
-400.004 	-0.0136444 	
-449.995 	-0.0141747 	
-499.997 	-0.0146201 	
-549.997 	-0.0149951 	
-600 	-0.0153249 	
-650.006 	-0.0156146 	
-700.001 	-0.0158761 	
-749.998 	-0.0161091 	
-800 	-0.0163167 	
-850.005 	-0.0165099 	
-899.994 	-0.0166881 	
-950 	-0.0168663 	
-999.99

File: 7ASiO2a.txt
Start Time:  06-06-2025 10:35:32          Time Completed:  06-06-2025 11:25:20      Elapsed Time:  00:49:47
Sample ID:

Experiment:    C:\IDEASVSM\LS_QC\Experiments\MvsH_1\MvsH_1.exp
Data File:     C:\IDEASVSM\LS_QC\7ASiO2a.txt
Plot File:     C:\IDEASVSM\LS_QC\7ASiO2a.oc2
VSM Exp File:  C:\IDEASVSM\LS_QC\Experiments\MvsH_1\MvsH_1.stp
VSM Data File: C:\IDEASVSM\LS_QC\7ASiO2a.dat

***DATA***

Field(G)	 Moment(emu)
 19000 	 0.00176017
 18000 	 0.00180021
 17000 	 0.00184796
 16000 	 0.00189528
 15000 	 0.00194265
 14000 	 0.00198615
 13515.2 	 0.00200241
 12000 	 0.00207831
 11000 	 0.00212879
 9999.99 	 0.00216932
 9000.01 	 0.00221574
 8000 	 0.00227829
 6999.99 	 0.00230099
 6000.01 	 0.00230412
 5000.01 	 0.00228799
 4000 	 0.0022407
 3000.05 	 0.00218631
 2000 	 0.002079
 999.995 	 0.00190439
 950.001 	 0.00182367
 899.993 	 0.00180421
 850.002 	 0.00178055
 800 	 0.00174897
 749.999 	 0.00172475
 699.994 	 0.00169505
 649.992 	 0.00166074
 600.002 	 0.00161646
 549.999 	 0.0015681
 500.001 	 0.00150746
 450.003 	 0.00143739
 400.003 	 0.00134431
 350 	 0.00122493
 300.008 	 0.00110743
 249.992 	 0.000950033
 200 	 0.000807196
 190.007 	 0.000768617
 180.003 	 0.00074078
 169.994 	 0.000710192
 159.993 	 0.000678413
 150.003 	 0.000646802
 139.996 	 0.000613355
 130.002 	 0.000579204
 119.987 	 0.000545075
 110.003 	 0.00051142
 99.9987 	 0.000476997
 89.9881 	 0.00044213
 80.0008 	 0.000411446
 69.9977 	 0.000380281
 59.9889 	 0.00034915
 50.0046 	 0.000317488
 39.9989 	 0.000285382
 29.9889 	 0.00025353
 20.0008 	 0.000221031
 18.0089 	 0.000212015
 15.9983 	 0.000204891
 13.9904 	 0.00019798
 11.9997 	 0.000190068
 10.0011 	 0.000182907
 7.99053 	 0.000175468
 5.99573 	 0.000166882
 3.99918 	 0.000155743
 2.00263 	 0.000134704
 0.000408287 	 0.0000556799
-2.01044 	-0.000113538
-4.00236 	-0.000146434
-5.99095 	-0.00015757
-8.00601 	-0.000164465
-10.0047 	-0.000170574
-11.9948 	-0.000174536
-14.0077 	-0.00018166
-16.0071 	-0.000186561
-18.0133 	-0.000190898
-20.0096 	-0.000196878
-30.0029 	-0.000218802
-40.0013 	-0.000242852
-50.0059 	-0.000266343
-59.9965 	-0.00029127
-69.9988 	-0.000316595
-80.0111 	-0.000342421
-90.0081 	-0.000368357
-100.002 	-0.000394061
-109.999 	-0.000421542
-120.003 	-0.000449699
-130.008 	-0.000480663
-140.001 	-0.000508981
-149.998 	-0.000537759
-159.999 	-0.000569036
-170.001 	-0.000599963
-180.011 	-0.000632456
-190.002 	-0.000663624
-200.005 	-0.000695559
-250.003 	-0.000846784
-299.996 	-0.000990828
-349.998 	-0.00112412
-400 	-0.00123431
-449.998 	-0.00132827
-500.001 	-0.00140497
-550.007 	-0.00146886
-600.001 	-0.00152072
-650.002 	-0.00156456
-700.004 	-0.00159966
-750.003 	-0.00163033
-800.02 	-0.00165311
-850.005 	-0.00167442
-900.003 	-0.00169085
-949.999 	-0.00170734
-1000.01 	-0.00172095
-2000.01 	-0.00184968
-3000.02 	-0.00189226
-4000.03 	-0.00191278
-5000 	-0.0019532
-5999.99 	-0.0019935
-7000.02 	-0.00203161
-7999.98 	-0.00205935
-8999.99 	-0.00209512
-9999.99 	-0.00208477
-11000 	-0.00205803
-12000 	-0.00203426
-13000 	-0.00199234
-14000 	-0.00193033
-15000 	-0.00189391
-16000 	-0.00185178
-17000 	-0.0018213
-18000 	-0.00178697
-19000 	-0.00176784
-18000 	-0.00180948
-17000 	-0.00185245
-16000 	-0.00190494
-15000 	-0.00194952
-14000 	-0.00199734
-13000 	-0.00205463
-12000 	-0.0020958
-11000 	-0.00213066
-9999.99 	-0.0021842
-8999.98 	-0.00223595
-8000 	-0.0022855
-6999.98 	-0.00231361
-5999.98 	-0.00230375
-4999.99 	-0.00225095
-4000 	-0.00220597
-2999.91 	-0.00217822
-2000 	-0.00207547
-999.991 	-0.00187224
-949.996 	-0.00183951
-900 	-0.00181556
-849.998 	-0.00179321
-800.002 	-0.00176762
-749.999 	-0.00173554
-700.002 	-0.0017018
-649.998 	-0.00166678
-599.997 	-0.0016303
-549.996 	-0.0015811
-499.991 	-0.00152258
-450.018 	-0.00145221
-400.004 	-0.00135699
-349.995 	-0.00124741
-300.003 	-0.0011194
-249.998 	-0.00097285
-199.993 	-0.000816943
-190.002 	-0.000782861
-180.001 	-0.000749934
-170.002 	-0.000717601
-159.998 	-0.000685097
-149.995 	-0.000651326
-139.997 	-0.000616891
-129.994 	-0.000583588
-119.992 	-0.00054939
-109.997 	-0.000516183
-99.9999 	-0.000483576
-89.9981 	-0.000449869
-80.0022 	-0.000412949
-69.9958 	-0.000383235
-59.998 	-0.000351762
-50.0004 	-0.000319509
-39.9979 	-0.000286391
-29.9931 	-0.000254674
-20.0005 	-0.000223179
-17.9967 	-0.000214614
-15.995 	-0.000206312
-13.9888 	-0.000199891
-12.0015 	-0.000192911
-10.0021 	-0.00018545
-8.00015 	-0.000177977
-5.99386 	-0.000169811
-3.99398 	-0.000158254
-1.99189 	-0.000137675
-0.0111747 	-0.0000558432
 1.99881 	 0.0001085
 4.0045 	 0.000139241
 6.00381 	 0.000150149
 7.99513 	 0.000158254
 10.0057 	 0.000163938
 11.9946 	 0.000170027
 13.9913 	 0.000174188
 16.0025 	 0.000179167
 18.0045 	 0.000184053
 20.0031 	 0.000189149
 30.0008 	 0.000212864
 40.0007 	 0.000235063
 49.9967 	 0.000258542
 60.0097 	 0.000283467
 69.9979 	 0.000309191
 80.0014 	 0.000336031
 90.0004 	 0.000361723
 100.004 	 0.000389486
 109.999 	 0.000415599
 120.007 	 0.000446753
 129.997 	 0.000474036
 140.002 	 0.000502731
 150 	 0.000532703
 160.003 	 0.000563482
 170.001 	 0.00059643
 179.996 	 0.000628251
 190.004 	 0.000659862
 199.994 	 0.000691663
 250 	 0.00084393
 299.992 	 0.000986564
 350.009 	 0.00111562
 400.022 	 0.00122966
 450.008 	 0.00132525
 500.005 	 0.00140423
 549.996 	 0.00147094
 600.001 	 0.00152553
 650.012 	 0.0015698
 698.341 	 0.001603
 750 	 0.00163349
 800.002 	 0.00165618
 850.005 	 0.00167759
 899.993 	 0.00169621
 950.004 	 0.00171194
 1000 	 0.00172585
 2000.01 	 0.00185739
 3000.01 	 0.00190225
 4000.01 	 0.00194567
 4999.99 	 0.00196496
 6000.02 	 0.00196577
 7000.01 	 0.00199125
 8000 	 0.0020072
 9000.02 	 0.00203482
 10000 	 0.00205677
 11000 	 0.00204907
 12000 	 0.00201765
 13000 	 0.00196748
 14000 	 0.00195481
 15000 	 0.00190049
 16000 	 0.00185626
 17000 	 0.00180591
 18000 	 0.00177817
 19000 	 0.00173581